File: Data/aquifer_well/well_test_202511/Raw Data/COMPASS_TEMPEST_WellTest_AQ600_Data_20251110.csv
Date Time,RDO Concentration (mg/L) (846271),RDO Saturation (%Sat) (846271),Oxygen Partial Pressure (Torr) (846271),Actual Conductivity (µS/cm) (682714),Specific Conductivity (µS/cm) (682714),Salinity (PSU) (682714),Resistivity (Ω⋅cm) (682714),Density (g/cm³) (682714),Total Dissolved Solids (ppt) (682714),Temperature (°C) (1150434),External Voltage (V) (1150434),Battery Capacity (%) (1150434),Barometric Pressure (mm Hg) (1150434),Pressure (psi) (1148753),Depth (cm) (1148753)
11/10/2025 12:10,11.7448,109.963,152.248,0,0,1.16E-10,10000000,0.99949,0,12.0824,0.018,69,755.0671,-0.00335598,-8.942737
11/10/2025 12:11,11.8718,111.629,154.475,0,0,0,10000000,0.99945,0,12.2556,0.009,69,754.4371,-0.005912781,-11.4633
11/10/2025 12:12,11.5009,109.274,151.148,0,0,0,10000000,0.999397,0,12.71683,0.009,69,754.4296,-0.007616043,17.5765
11/10/2025 12:13,10.7351,107.521,148.513,196.743,239.557,0.11434,5082.785,0.999091,0.155712,15.1668,0.009,69,755.277,0.2115097,32.95896
11/10/2025 12:14,9.997154,101.549,140.07,194.8591,236.526,0.112876,5131.913,0.9990684,0.153742,15.7581,0.009,69,754.7446,-0.009532929,18.4784
11/10/2025 12:15,9.897669,100.483,138.628,194.618,236.551,0.112883,5138.279,0.9990777,0.153758,15.7409,0,69,754.8871,-0.015419,18.06406
11/10/2025 12:16,9.86338,100.121,138.13,194.675,236.416,0.112821,5136.76,0.999072,0.15367,15.7346,0,69,754.8871,-0.01621151,18.0077
11/10/2025 12:17,9.857367,100.074,138.056,194.661,236.587,0.112901,5137.13,0.999077,0.153782,15.7382,0,69,754.8421,-0.0156555,18.0466
11/10/2025 12:18,9.859023,100.083,138.023,194.727,236.603,0.11291,5135.39,0.9990752,0.153792,15.718,0,69,754.5796,-0.009924889,18.44775
11/10/2025 12:19,9.822306,99.67907,137.511,194.694,236.707,0.1129581,5136.273,0.9990795,0.15386,15.7189,0,69,754.8271,-0.0146961,18.1129
11/10/2025 12:20,9.850182,99.9456,137.87,194.903,236.895,0.113051,5130.77,0.9990777,0.153982,15.7075,0,69,754.7671,-0.01565075,18.0479
11/10/2025 12:21,8.179197,83.77603,115.516,210.8602,254.42,0.121624,4742.48,0.9990332,0.165373,16.1536,0,69,754.8421,-0.0200205,15.8163
11/10/2025 12:22,6.607983,67.5477,93.14535,219.3418,264.538,0.126567,4559.09,0.999034,0.17195,16.0551,0,69,754.8046,0.119672,27.2363
11/10/2025 12:23,5.669484,58.01685,79.98802,218.822,263.6393,0.126132,4569.931,0.999026,0.171366,16.0997,0,69,754.7071,0.2354536,35.533
11/10/2025 12:24,4.94502,50.6961,69.88116,227.401,273.47,0.130945,4397.519,0.9990169,0.177756,16.18,0,69,754.6321,0.284197,38.20188
11/10/2025 12:25,4.42449,45.42588,62.5953,229.826,276.032,0.132204,4351.125,0.9990086,0.179421,16.2358,0.009,69,754.4296,0.403075,46.8315
11/10/2025 12:26,4.205743,43.15734,59.49544,227.8462,273.6798,0.131053,4388.93,0.9990084,0.177892,16.2319,0,69,754.7521,0.533289,56.61939
11/10/2025 12:27,3.71278,38.1905,52.64525,231.703,277.566,0.132965,4315.872,0.99899,0.180418,16.349,0,69,754.812,0.6362734,63.8418
11/10/2025 12:28,3.60327,37.0556,51.076,230.774,276.555,0.1324689,4333.235,0.9989927,0.179761,16.33309,0,69,754.73,0.737705,71.05774
11/10/2025 12:29,3.45809,35.5867,49.0476,231.89,277.701,0.1330327,4312.382,0.998988,0.180506,16.3632,0,69,754.6996,0.840548,78.24388
11/10/2025 12:30,3.24272,33.39266,46.02719,232.911,278.686,0.133518,4293.49,0.998982,0.181146,16.4003,0,69,754.79,0.940722,85.29649
11/10/2025 12:31,2.947961,30.3846,41.88051,233.729,279.38,0.1338621,4278.46,0.998975,0.181597,16.4449,0,69,754.82,1.0489,92.9074
11/10/2025 12:32,2.72051,28.0717,38.68516,234.745,280.295,0.134315,4259.95,0.9989675,0.182192,16.4917,0,69,754.7221,1.14566,99.71818
11/10/2025 12:33,2.70833,27.9454,38.5123,234.829,280.3925,0.134362,4258.421,0.9989675,0.182255,16.4922,0,69,754.7446,1.24414,106.541
11/10/2025 12:34,2.42422,25.03147,34.4991,235.547,281,0.134663,4245.43,0.9989611,0.1826503,16.5312,0,69,754.8346,1.3538,114.362
11/10/2025 12:35,2.29679,23.7169,32.69,235.6825,281.119,0.134722,4243,0.99896,0.182727,16.5379,0,69,754.9021,1.44857,120.931
11/10/2025 12:36,2.254629,23.29725,32.09902,235.982,281.384,0.134853,4237.612,0.998958,0.1829,16.5522,0,69,754.625,1.552578,128.241
11/10/2025 12:37,2.20752,22.80922,31.4411,236.607,281.999,0.135156,4226.41,0.9989546,0.1833,16.5725,0,69,754.9846,1.65116,135.1954
11/10/2025 12:38,2.09751,21.6953,29.88136,236.7289,282.067,0.135191,4224.241,0.9989525,0.183344,16.5845,0,69,754.3921,1.76425,143.2639
11/10/2025 12:39,1.98509,20.5274,28.2902,236.941,282.1997,0.135257,4220.463,0.998949,0.18343,16.6032,0,69,754.8646,1.859807,149.979
11/10/2025 12:40,1.99835,20.6712,28.48451,237.148,282.3853,0.135349,4216.784,0.998948,0.18355,16.6126,0,69,754.775,1.964323,157.3407
11/10/2025 12:41,1.92469,19.9245,27.4416,237.298,282.4821,0.135398,4214.1,0.9989457,0.183613,16.6255,0,69,754.407,2.07402,165.061
11/10/2025 12:42,1.85708,19.21865,26.4832,237.507,282.6623,0.135487,4210.41,0.998944,0.1837305,16.6361,0,69,754.8046,2.16971,171.784
11/10/2025 12:43,1.80959,18.73271,25.8095,237.643,282.779,0.1355446,4207.999,0.998943,0.183806,16.6431,0,69,754.6921,2.26932,178.861
11/10/2025 12:44,1.7557,18.1739,25.047,237.805,282.8934,0.135602,4205.13,0.9989408,0.183881,16.6553,0,69,754.9246,2.364297,185.48
11/10/2025 12:45,1.67053,17.3058,23.8377,238.201,283.2879,0.135796,4198.13,0.998939,0.184137,16.6673,0,69,754.5346,2.47584,193.334
11/10/2025 12:46,1.65161,17.1097,23.5715,238.1624,283.188,0.1357478,4198.82,0.9989375,0.184072,16.6756,0,69,754.6621,2.576,200.38
11/10/2025 12:47,1.60815,16.6599,22.955,240.342,285.728,0.136993,4160.73,0.9989371,0.1857232,16.6837,0,69,754.775,2.67415,207.297
11/10/2025 12:48,1.5679,16.2457,22.3847,240.252,285.559,0.136911,4162.29,0.9989354,0.185614,16.6932,0,69,754.797,2.77526,214.423
11/10/2025 12:49,1.533313,15.8855,21.8942,240.2324,285.486,0.136876,4162.64,0.998934,0.185566,16.7008,0,69,755,2.874424,221.3008
11/10/2025 12:50,1.50037,15.5484,21.4262,238.532,283.428,0.135868,4192.309,0.998932,0.184228,16.7066,0,69,754.8871,2.97357,228.37
11/10/2025 12:51,1.46072,15.1438,20.8645,238.686,283.5389,0.135923,4189.61,0.99893,0.1843,16.7178,0,69,754.7521,3.08061,235.813
11/10/2025 12:52,1.42411,14.7663,20.34347,238.76,283.599,0.135953,4188.303,0.9989297,0.1843392,16.7222,0,69,754.7221,3.18146,242.898
11/10/2025 12:53,1.39298,14.4476,19.9024,238.828,283.6191,0.135964,4187.112,0.998928,0.184352,16.7316,0,69,754.6546,3.28585,250.358
11/10/2025 12:54,1.36552,14.1606,19.5103,238.8743,283.668,0.135988,4186.3,0.9989279,0.1843842,16.7325,0,69,754.7821,3.39151,257.839
11/10/2025 12:55,1.33713,13.8665,19.10717,238.908,283.668,0.135989,4185.72,0.998927,0.1843842,16.7387,0,69,754.8646,3.48706,264.568
11/10/2025 12:56,1.31526,13.643,18.7966,238.9951,283.738,0.136023,4184.186,0.9989261,0.18443,16.7439,0,69,754.7671,3.59212,271.959
11/10/2025 12:57,1.28969,13.3796,18.43341,239.0556,283.77,0.136039,4183.13,0.9989249,0.18445,16.7502,0,69,754.7596,3.692855,279.058
11/10/2025 12:58,1.19761,12.4254,17.1216,239.236,283.9023,0.136106,4179.97,0.9989228,0.1845365,16.76286,0,69,754.895,3.79137,285.921
11/10/2025 12:59,1.23942,12.8655,17.7205,239.2558,283.902,0.136106,4179.627,0.9989222,0.1845364,16.76651,0,69,754.5871,3.901906,293.769
11/10/2025 13:00,1.2222,12.6835,17.4748,239.263,283.9021,0.136106,4179.51,0.998922,0.184536,16.7678,0,69,754.797,3.99843,300.552
11/10/2025 13:01,1.05169,10.9195,15.0433,239.733,284.3219,0.1363134,4171.3,0.998919,0.184809,16.7893,0,69,754.7596,4.055957,304.1518
11/10/2025 13:02,1.03527,10.74912,14.8084,239.618,284.184,0.136246,4173.31,0.9989185,0.184719,16.7895,0,69,754.7521,4.19283,314.1356
11/10/2025 13:03,1.01812,10.5694,14.5636,239.639,284.2002,0.1362539,4172.95,0.9989182,0.18473,16.79079,0,69,754.895,4.26323,318.5447
11/10/2025 13:04,0.991685,10.29822,14.1879,239.853,284.3969,0.136351,4169.22,0.9989167,0.184858,16.79967,0,69,754.797,4.31333,321.851
11/10/2025 13:05,0.9672689,10.0465,13.8387,239.798,284.329,0.136318,4170.182,0.9989166,0.184814,16.8001,0,69,754.67,4.43508,330.2372
11/10/2025 13:06,0.951553,9.88472,13.6144,239.787,284.3041,0.136306,4170.37,0.998916,0.184798,16.80191,0,69,754.5871,4.532895,337.3493
11/10/2025 13:07,0.946558,9.828867,13.5438,239.8453,284.352,0.136329,4169.354,0.9989158,0.1848285,16.8053,0,69,754.94,4.63485,344.641
11/10/2025 13:08,0.92616,9.615612,13.2521,239.923,284.44,0.136373,4168.01,0.998916,0.1848859,16.8059,0,69,755.06,4.824135,358.1307
11/10/2025 13:09,0.921914,9.576906,13.1925,239.849,284.322,0.136315,4169.294,0.9989148,0.18481,16.8105,0,69,754.7146,5.16672,381.959
11/10/2025 13:10,0.9180235,9.558581,13.1369,239.971,284.467,0.136387,4167.163,0.998915,0.184904,16.8105,0,69,753.0044,5.395115,398.5765
11/10/2025 13:11,1.02688,10.7204,14.6959,239.6398,284.046,0.13618,4172.93,0.998914,0.18463,16.815,0,69,751.1143,5.34217,395.147
11/10/2025 13:12,1.034159,10.808,14.7998,239.615,284.022,0.136169,4173.354,0.998914,0.184614,16.8142,0,69,750.312,5.35144,395.798
11/10/2025 13:13,1.03031,10.7638,14.7447,239.5902,283.991,0.136153,4173.79,0.998914,0.184594,16.8143,0,69,750.5818,5.343446,395.2332
11/10/2025 13:14,1.032299,10.7798,14.7732,239.568,283.966,0.136141,4174.182,0.998914,0.184578,16.8142,0,69,750.904,5.368224,396.9811
11/10/2025 13:15,1.03205,10.7734,14.7699,239.536,283.923,0.13612,4174.73,0.998914,0.18455,16.815,0,69,751.182,5.332183,394.445
11/10/2025 13:16,1.03032,10.751,14.7451,239.454,283.827,0.136073,4176.172,0.998914,0.184488,16.8147,0,69,751.474,5.332198,394.447
11/10/2025 13:17,1.03402,10.7883,14.7983,239.469,283.839,0.136079,4175.898,0.9989138,0.184496,16.81569,0,69,751.579,5.32632,394.0322
11/10/2025 13:18,1.03328,10.7775,14.7875,239.473,283.846,0.136083,4175.84,0.9989138,0.1845,16.8152,0,69,751.782,5.320484,393.624
11/10/2025 13:19,1.03217,10.7687,14.7719,239.4585,283.824,0.136072,4176.089,0.9989137,0.184486,16.816,0,69,751.6018,5.246558,388.416
11/10/2025 13:20,1.0336,10.7921,14.7924,239.388,283.74,0.136031,4177.325,0.9989137,0.184431,16.816,0,69,751.0243,5.156395,382.072
11/10/2025 13:21,1.03659,10.8222,14.8344,239.37,283.736,0.136028,4177.63,0.9989141,0.184428,16.8135,0,69,751.062,5.07047,376.027
11/10/2025 13:22,1.03628,10.8173,14.8302,239.315,283.665,0.1359937,4178.59,0.9989139,0.184382,16.8144,0,69,751.189,4.97349,369.199
11/10/2025 13:23,1.03686,10.8268,14.8398,239.368,283.6995,0.136011,4177.66,0.998913,0.184405,16.8188,0,69,751.0243,4.97831,369.537
11/10/2025 13:24,0.9422341,9.840547,13.4893,239.7623,284.0738,0.136196,4170.8,0.9989109,0.184648,16.8332,0,69,751.1068,5.13748,380.56
11/10/2025 13:25,1.00227,10.4523,14.3443,239.34,283.677,0.136,4178.165,0.9989134,0.18439,16.81705,0,69,751.9319,5.167513,382.8505
11/10/2025 13:26,1.01552,10.58935,14.543,239.637,283.827,0.1360761,4172.97,0.9989081,0.184488,16.8486,0,69,752.5019,5.058197,375.16
11/10/2025 13:27,1.00739,10.5036,14.4264,239.5041,283.6725,0.1360004,4175.294,0.9989081,0.184387,16.8481,0,69,752.562,4.91729,365.245
11/10/2025 13:28,1.01961,10.63001,14.6005,239.478,283.6588,0.135993,4175.746,0.9989086,0.184378,16.8454,0,69,752.5844,4.82611,358.8274
11/10/2025 13:29,1.01364,10.5723,14.514,239.482,283.688,0.136007,4175.683,0.9989093,0.184397,16.8416,0,69,752.2094,4.785014,355.932
11/10/2025 13:30,1.00906,10.5298,14.4477,239.409,283.6177,0.135973,4176.953,0.9989097,0.1843515,16.839,0,69,751.8043,4.748043,353.333
11/10/2025 13:31,1.00776,10.5238,14.4292,239.326,283.515,0.135923,4178.41,0.99891,0.184285,16.8396,0,69,751.2793,4.708723,350.565
11/10/2025 13:32,1.00808,10.5247,14.4336,239.379,283.583,0.135956,4177.478,0.9989098,0.184329,16.83882,0,69,751.444,4.66352,347.3858
11/10/2025 13:33,1.00701,10.5038,14.419,239.39,283.577,0.135953,4177.28,0.998909,0.184325,16.8419,0,69,752.164,4.60323,343.1411
11/10/2025 13:34,1.00566,10.4794,14.3989,239.278,283.4653,0.135898,4179.24,0.99891,0.184252,16.8385,0,69,752.8469,4.54703,339.184
11/10/2025 13:35,0.8924005,9.286384,12.771,239.581,283.983,0.136149,4173.96,0.9989141,0.184589,16.8139,0,69,753.4845,4.553914,339.608
11/10/2025 13:36,0.9591258,9.990062,13.7324,239.3979,283.613,0.13597,4177.146,0.99891,0.184349,16.8377,0,69,753.1619,4.606409,343.3638
11/10/2025 13:37,0.9856987,10.273,14.114,239.434,283.629,0.135978,4176.523,0.9989091,0.184359,16.8419,0,69,752.7794,4.613549,343.864
11/10/2025 13:38,1.00489,10.4855,14.3927,239.532,283.6568,0.135993,4174.81,0.998907,0.184377,16.8556,0,69,752.1118,4.628275,344.902
11/10/2025 13:39,0.9952487,10.3899,14.2547,239.524,283.6445,0.135987,4174.95,0.9989068,0.184369,16.856,0,69,751.767,4.62434,344.629
11/10/2025 13:40,0.9959842,10.4077,14.2675,239.4504,283.506,0.13592,4176.23,0.998905,0.184279,16.8641,0,69,751.174,4.63498,345.374
11/10/2025 13:41,0.996023,10.4092,14.2689,239.496,283.54,0.135937,4175.441,0.998905,0.184301,16.8671,0,69,751.1443,4.63812,345.596
11/10/2025 13:42,1.00061,10.457,14.3339,239.522,283.586,0.135959,4174.97,0.998905,0.184331,16.8649,0,69,751.1143,4.61723,344.125
11/10/2025 13:43,1.0009,10.4501,14.337,239.416,283.486,0.13591,4176.82,0.9989059,0.184266,16.8609,0,69,751.7519,4.558338,339.979
11/10/2025 13:44,0.892711,9.314266,12.7812,239.771,284.061,0.13619,4170.649,0.9989102,0.18464,16.8367,0,69,751.879,4.565673,340.498
11/10/2025 13:45,0.8822654,9.193203,12.6315,239.784,284.0801,0.136199,4170.428,0.9989104,0.184652,16.8361,0,69,752.8395,4.553753,339.22
11/10/2025 13:46,0.9645667,10.0572,13.8173,239.489,283.555,0.135944,4175.56,0.998905,0.184311,16.8636,0,69,752.7945,4.617939,344.177
11/10/2025 13:47,0.9956065,10.3869,14.2648,239.612,283.6364,0.135985,4173.407,0.9989037,0.184364,16.8737,0,69,752.517,4.623912,344.595
11/10/2025 13:48,0.9857368,10.2783,14.1219,239.5385,283.582,0.135958,4174.69,0.9989045,0.184328,16.8686,0,69,752.8395,4.618515,344.2173
11/10/2025 13:49,0.9879296,10.2969,14.1529,239.526,283.577,0.1359551,4174.91,0.9989048,0.184325,16.867,0,69,753.124,4.592759,342.406
11/10/2025 13:50,0.996223,10.3855,14.2708,239.437,283.493,0.135914,4176.459,0.9989054,0.184271,16.8637,0,69,752.922,4.541065,338.7611
11/10/2025 13:51,0.88072,9.177469,12.612,239.585,283.777,0.136052,4173.88,0.9989084,0.184455,16.8467,0,69,752.9744,4.61047,343.592
11/10/2025 13:52,0.9723792,10.1369,13.9313,239.69,283.7444,0.136038,4172.06,0.9989042,0.184434,16.8711,0,69,753.0345,4.616255,344.0586
11/10/2025 13:53,0.979039,10.2159,14.0295,239.63,283.6077,0.135972,4173.1,0.9989024,0.184345,16.8814,0,69,752.5019,4.62785,344.8751
11/10/2025 13:54,0.981015,10.2306,14.0562,239.554,283.557,0.135946,4174.43,0.9989034,0.184312,16.87532,0,69,752.8395,4.620346,344.3391
11/10/2025 13:55,0.9818231,10.2464,14.0693,239.552,283.5178,0.135927,4174.456,0.998902,0.184287,16.8811,0,69,752.389,4.630213,345.041
11/10/2025 13:56,0.986649,10.2921,14.141,239.58,283.492,0.135915,4173.969,0.9989008,0.1842695,16.89031,0,69,752.869,4.619278,344.272
11/10/2025 13:57,0.9906407,10.322,14.1968,239.564,283.5067,0.135922,4174.25,0.998902,0.184279,16.885,0,69,753.627,4.605117,343.277
11/10/2025 13:58,0.984061,10.2445,14.1022,239.51,283.45,0.135895,4175.183,0.9989019,0.1842426,16.8839,0,69,754.2571,4.59245,342.385
11/10/2025 13:59,0.9836321,10.2491,14.0943,239.436,283.4026,0.135871,4176.49,0.998903,0.184212,16.87749,0,69,753.507,4.60724,343.423
11/10/2025 14:00,0.986371,10.291,14.1328,239.425,283.4054,0.135872,4176.677,0.998903,0.1842135,16.8751,0,69,752.5094,4.626774,344.795
11/10/2025 14:01,0.9905769,10.328,14.1932,239.392,283.3631,0.135851,4177.242,0.998903,0.184186,16.8757,0,69,753.0044,4.6194,344.279
11/10/2025 14:02,0.9990697,10.4271,14.3148,239.484,283.475,0.135906,4175.64,0.998903,0.184258,16.87521,0,69,752.2544,0.04745388,22.4831
11/10/2025 14:03,6.17811,62.89605,86.31403,0.0549451,0.06689011,0,18200000,0.999001,4.35E-05,15.6504,0,69,750.8893,0.07184887,24.1926
11/10/2025 14:04,9.569185,94.89025,130.096,0.0549451,0.06902459,0,18200000,0.999201,4.49E-05,14.3205,0,69,749.0891,0.114249,26.2932
11/10/2025 14:05,10.5392,100.314,137.6967,0.0549451,0.0722793,0,18200000,0.9994477,4.70E-05,12.4438,0,69,748.5566,0.125001,-7.90525
11/10/2025 14:06,11.0592,103.055,142.3877,0.0549451,0.07352287,0,,,,,,,,,