File: Data/aquifer_well/well_test_202509/Raw Data/COMPASS_TEMPEST_WellTest_AQ600_Data.csv
Date Time,pH (pH) (944309),pH mV (mV) (944309),ORP (mV) (944309),RDO Concentration (mg/L) (1147009),RDO Saturation (%Sat) (1147009),Oxygen Partial Pressure (Torr) (1147009),Actual Conductivity (µS/cm) (951425),Specific Conductivity (µS/cm) (951425),Salinity (PSU) (951425),Resistivity (Ω⋅cm) (951425),Density (g/cm³) (951425),Total Dissolved Solids (ppt) (951425),Temperature (°C) (951973),External Voltage (V) (951973),Battery Capacity (%) (951973),Barometric Pressure (mm Hg) (951973),Pressure (psi) (948746),Depth (cm) (948746)
9/4/2025 11:17,6.49573,-18.0531,52.6087,8.606227,105.6606,164.377,2.58297,2.41987,0.000197676,387150.97,0.9960858,0.001572917,28.5288,0.198,85,796.8252,-0.729188,-50.7319
9/4/2025 11:18,6.64788,-26.989,68.12972,8.534517,104.257,162.523,0.163858,0.154048,0,6102838,0.996142,0.000100131,28.3343,0.225,85,798.055,-0.751389,-33.9424
9/4/2025 11:19,6.68213,-29.02031,85.5486,8.352296,102.163,159.485,0.140437,0.131609,0,7120638.5,0.996091,8.55E-05,28.51187,0.252,85,799.45,-0.7792616,-40.70903
9/4/2025 11:20,6.63385,-26.2213,77.7881,8.202514,101.0138,157.773,0.0549451,0.0510514,0,18200000,0.995951,3.32E-05,28.9932,0.279,85,800.681,-0.8005018,-42.2874
9/4/2025 11:21,6.5609,-21.9417,82.0009,8.139626,100.535,157.2076,0.0549451,0.05080564,0,18200000,0.99587,3.30E-05,29.2657,0.279,85,802.0531,-0.8337517,-44.53247
9/4/2025 11:22,6.65469,-27.51112,82.88068,8.077275,100.3783,156.958,0.0549451,0.0504415,0,18200000,0.9957489,3.28E-05,29.6744,0.279,85,802.7581,-0.8441944,-45.242
9/4/2025 11:23,6.63031,-26.1307,-101.236,5.22543,65.62176,102.618,63.8405,58.9871,0.02679,15664.041,0.995878,0.0383416,30.36753,0.297,85,804.078,-0.8704529,-46.515
9/4/2025 11:24,6.78612,-34.60884,-151.902,1.51413,16.934,26.88737,191.331,197.87,0.0942764,5226.55,0.997549,0.128615,23.9617,0.324,85,805.751,-0.704005,-35.37104
9/4/2025 11:25,6.75753,-32.59659,-154.3601,0.9678147,10.1974,16.2506,192.899,209.913,0.100141,5184.05,0.9981239,0.1364435,20.7564,0.288,85,804.671,-0.668323,-31.8523
9/4/2025 11:26,6.73897,-31.3258,-159.009,0.9835289,9.987399,15.9361,189.308,214.61,0.102384,5282.404,0.9985196,0.139496,18.8274,0.27,85,803.598,-0.6763,-32.52135
9/4/2025 11:27,6.917564,-41.3489,-164.8,1.30782,13.0153,20.7721,165.442,191.882,0.09129049,6044.416,0.9987073,0.124723,17.7857,0.261,85,802.7432,-0.6771612,-32.4393
9/4/2025 11:28,6.995341,-45.81213,-176.385,0.5337733,5.3505,8.529254,165.774,190.938,0.09084493,6032.31,0.998649,0.12411,18.0998,0.234,85,802.1206,-0.671755,-32.164
9/4/2025 11:29,6.79819,-34.55639,-161.262,0.516191,5.126548,8.174891,171.066,199.071,0.09477645,5845.71,0.998737,0.129396,17.6346,0.189,85,801.926,-0.6549406,-30.7642
9/4/2025 11:30,6.892922,-39.89935,-169.977,0.47528,4.703468,7.49431,154.788,181.019,0.0860008,6460.462,0.998771,0.117662,17.4131,0.153,85,801.093,-0.8510494,-62.51206
9/4/2025 11:31,6.94178,-42.6698,-174.366,0.4526,4.491298,7.137956,155.473,181.784,0.08637215,6431.994,0.998769,0.1181594,17.4221,0.135,85,799.0904,-0.5982027,-26.5976
9/4/2025 11:32,6.95685,-43.5257,-178.066,0.3712443,3.69074,5.85573,141.123,165.02,0.07824255,7086,0.9987636,0.107263,17.4348,0.126,85,797.778,-0.576156,-25.4815
9/4/2025 11:33,6.89876,-40.2403,-178.016,0.4141207,4.12502,6.53796,90.8244,106.04,0.0496827,11010.263,0.998729,0.06892586,17.4875,0.099,85,797.0127,-0.560061,-24.4245
9/4/2025 11:34,6.889701,-39.7205,-163.687,1.228013,12.2284,19.37429,161.717,189.007,0.0898789,6183.65,0.998769,0.1228544,17.4405,0.072,85,796.6826,-0.549653,-22.6193
9/4/2025 11:35,7.150143,-54.68607,-195.5064,0.5229118,5.15094,8.15996,158.447,187.532,0.08913522,6311.25,0.998866,0.121896,16.88001,0.072,85,796.0601,-0.5345011,-22.1268
9/4/2025 11:36,7.109385,-52.309,-199.939,0.3104045,3.069447,4.85964,142.134,167.584,0.0794695,7035.608,0.9988297,0.10893,17.049,0.072,85,795.753,-0.5341978,-22.0394
9/4/2025 11:37,7.07906,-50.5471,-193.48,0.335067,3.32637,5.26356,138.312,162.442,0.0769849,7230.017,0.9987972,0.105587,17.223,0.054,85,795.4901,-0.5288992,-21.275
9/4/2025 11:38,7.0566,-49.24774,-189.632,0.3455471,3.44227,5.44641,140.682,164.591,0.07803357,7108.24,0.9987677,0.106984,17.3945,0.036,85,795.5726,-0.5291691,-21.3335
9/4/2025 11:39,7.28503,-62.89482,-179.158,8.414989,84.82553,134.1296,0.0549451,0.06342765,0,18200000,0.9985979,4.12E-05,17.9981,0.036,85,795.67,-0.7417345,-35.6407
9/4/2025 11:40,7.22323,-59.04913,-192.009,1.76902,17.486,27.7258,137.924,162.413,0.07696629,7250.37,0.998818,0.105569,17.1056,0.036,85,796.9752,-0.71548,-34.9668
9/4/2025 11:41,7.26918,-61.8076,-197.433,0.8263223,8.190488,13.0018,143.716,168.476,0.0799132,6958.18,0.9987849,0.10951,17.30531,0.027,85,798.0628,-0.5728502,-24.9284
9/4/2025 11:42,7.17948,-56.53143,-199.037,0.508893,5.06323,8.03103,145.132,169.5578,0.08044372,6890.277,0.9987582,0.110213,17.4578,0.027,85,797.575,-0.5652046,-24.28406
9/4/2025 11:43,7.296292,-63.46941,-210.825,0.385627,3.845,6.09902,147.412,171.791,0.0815311,6783.72,0.998739,0.111664,17.57,0.018,85,797.7178,-0.5671005,-24.4222
9/4/2025 11:44,7.37897,-68.295,-233.7845,0.293478,2.90769,4.614994,154.974,181.806,0.08637634,6452.7,0.9987957,0.118174,17.27288,0.018,85,797.9053,-0.5678024,-24.51237
9/4/2025 11:45,7.308319,-64.10837,-241.2923,0.239819,2.37366,3.7687,156.876,184.179,0.0875259,6374.48,0.9988026,0.119716,17.2386,0.018,85,798.1453,-0.5728216,-24.885
9/4/2025 11:46,7.28578,-62.7899,-237.5372,0.255716,2.53453,4.02379,149.557,175.317,0.0832301,6686.41,0.998787,0.1139561,17.30711,0.009,85,798.1453,-0.5741,-25.0576
9/4/2025 11:47,7.239138,-60.01711,-232.256,0.265261,2.62539,4.16854,153.446,180.1491,0.0855708,6516.94,0.998801,0.117097,17.2394,0.009,85,798.1753,-0.575295,-25.10708
9/4/2025 11:48,6.973934,-44.4818,-153.025,7.21758,71.57132,113.6783,159.2742,186.514,0.08866455,6278.481,0.9987833,0.121234,17.3537,0,85,798.5503,-0.583936,-24.2331
9/4/2025 11:49,7.42275,-70.75072,-256.558,0.591244,5.792763,9.198342,168.068,199.868,0.09511266,5949.97,0.9989071,0.129914,16.72531,0.018,84,797.763,-0.571197,-24.1669
9/4/2025 11:50,7.458912,-72.85356,-269.34,0.227299,2.22317,3.52736,162.157,193.153,0.0918478,6166.856,0.9989168,0.1255496,16.5982,0.009,84,797.0202,-0.5518446,-21.9689
9/4/2025 11:51,7.474066,-73.7834,-262.6999,0.225902,2.217022,3.51524,151.6861,180.1071,0.08552574,6592.562,0.998888,0.11707,16.7382,0.009,84,796.6227,-0.5447626,-21.6493
9/4/2025 11:52,7.420574,-70.6792,-256.21,0.2343023,2.31039,3.66184,149.201,176.273,0.0836775,6702.35,0.998849,0.114577,16.9593,0.009,84,796.518,-0.5417385,-21.3572
9/4/2025 11:53,7.422494,-70.7936,-255.023,0.239195,2.36048,3.73857,146.146,172.647,0.0819197,6842.483,0.998846,0.11222,16.9634,0.009,84,795.963,-0.529135,-20.4701
9/4/2025 11:54,7.498122,-75.1996,-240.794,5.68725,55.82406,88.4756,164.393,195.2643,0.0928799,6082.992,0.9988965,0.1269218,16.7224,0.009,84,796.278,-0.741662,-36.0915
9/4/2025 11:55,7.19789,-57.48272,-207.42,2.77662,27.2359,43.22959,166.923,198.091,0.09425482,5990.801,0.9988907,0.128759,16.7621,0.009,84,797.463,-0.7625618,-37.53043
9/4/2025 11:56,6.83918,-36.9453,-152.505,4.60222,46.3768,73.55394,0.0549451,0.0632323,0,18200000,0.9985719,4.11E-05,18.13823,0.018,84,798.1602,-0.7761049,-46.19739
9/4/2025 11:57,7.067503,-49.9964,-199.791,5.38903,53.97236,85.94363,173.766,200.601,0.0955363,5754.86,0.9986718,0.130391,17.9962,0.027,84,801.16,-0.6268015,-28.652
9/4/2025 11:58,7.20724,-58.2099,-242.925,1.075332,10.7142,17.0298,169.292,197.008,0.09377384,5906.948,0.9987367,0.1280549,17.6345,0.018,84,799.3829,-0.5855799,-26.2151
9/4/2025 11:59,7.210322,-58.3744,-246.29,0.6084647,6.061391,9.619506,165.7125,193.2223,0.09193089,6034.548,0.9987513,0.1255945,17.5459,0.018,84,798.085,-0.564971,-24.88263
9/4/2025 12:00,7.180558,-56.6268,-237.766,0.523959,5.2319,8.29543,164.099,191.024,0.09086677,6093.87,0.998737,0.124166,17.6204,0.018,84,797.433,-0.5543337,-24.1539
9/4/2025 12:01,7.16421,-55.67074,-234.168,0.493779,4.9382,7.827124,162.361,188.7368,0.08975865,6159.1,0.998725,0.122679,17.6834,0.018,84,797.23,-0.5547533,-24.184
9/4/2025 12:02,7.153273,-55.0365,-232.008,0.470421,4.711545,7.46721,161.744,187.719,0.08926743,6182.618,0.9987112,0.122017,17.7554,0.009,84,797.23,-0.5534191,-24.09057
9/4/2025 12:03,7.099978,-51.8751,-231.021,0.48525,4.84724,7.69942,164.956,191.54,0.091122,6062.24,0.9987166,0.124501,17.7334,0.009,84,798.9554,-0.58066,-25.5311
9/4/2025 12:04,7.32134,-64.86177,-272.754,0.5045772,5.004114,7.91816,165.946,195.1502,0.09284865,6026.059,0.99882,0.126848,17.1649,0,84,795.4151,-0.511276,-20.5499
9/4/2025 12:05,7.408364,-69.95917,-291.7846,0.322066,3.185594,5.034305,163.6906,193.365,0.0919714,6109.09,0.998854,0.125687,16.9652,0.009,84,794.245,-0.49152,-19.199
9/4/2025 12:06,7.536484,-77.49081,-314.887,0.240123,2.36931,3.74282,161.8806,191.849,0.0912274,6177.39,0.9988782,0.124702,16.8216,0.009,84,793.8024,-0.483701,-18.5397
9/4/2025 12:07,7.62883,-82.89337,-335.465,0.164869,1.62068,2.56083,161.132,191.7335,0.0911613,6206.07,0.9989085,0.124627,16.6439,0,84,793.832,-0.482073,-18.4505
9/4/2025 12:08,7.584561,-80.3113,-326.6986,0.166392,1.639616,2.590115,161.47,191.656,0.09112984,6193.103,0.9988897,0.124576,16.7539,0.009,84,793.7425,-0.481944,-18.6335
9/4/2025 12:09,7.556929,-78.70197,-322.624,0.169768,1.675271,2.6469,160.128,189.712,0.09019097,6245.01,0.998875,0.123313,16.83538,0,84,793.9524,-0.487165,-18.7576
9/4/2025 12:10,7.71792,-88.14812,-351.3487,0.133813,1.31437,2.077987,158.788,188.9906,0.0898295,6297.72,0.9989093,0.122844,16.6329,0,84,794.26,-0.491027,-19.1483
9/4/2025 12:11,7.65631,-84.52892,-342.6798,0.126787,1.24653,1.971104,157.541,187.263,0.08899427,6347.56,0.9988989,0.121721,16.6902,0,84,794.455,-0.4952631,-19.43413
9/4/2025 12:12,7.613757,-82.04698,-334.411,0.13793,1.35889,2.14881,156.897,186.051,0.08841187,6373.622,0.99888,0.120933,16.7959,0,84,794.5675,-0.5000696,-19.7873
9/4/2025 12:13,7.628501,-82.9148,-336.088,0.1395578,1.37433,2.17373,154.277,182.985,0.0869239,6481.843,0.998881,0.11894,16.7861,0,84,794.74,-0.5028143,-19.9804
9/4/2025 12:14,7.72249,-88.4199,-357.004,0.102682,1.00788,1.59474,152.981,182.051,0.086463,6536.75,0.998906,0.118333,16.6399,0,84,794.905,-0.5047245,-20.1266
9/4/2025 12:15,7.66779,-85.19173,-346.5255,0.1109674,1.08888,1.72343,151.647,180.461,0.085692,6594.27,0.9989049,0.117299,16.6404,0,84,795.1451,-0.5098877,-20.5311
9/4/2025 12:16,6.91392,-41.225,-142.961,6.701127,68.121,107.636,167.3522,191.612,0.09118204,5975.422,0.9985984,0.124548,18.3713,0,84,795.4601,-0.521917,-21.16228
9/4/2025 12:17,7.679105,-85.8426,-333.803,0.6314028,6.1772,9.79567,169.517,202.0965,0.09618822,5899.107,0.9989266,0.131363,16.5825,0,84,796.585,-0.5442314,-23.23368
9/4/2025 12:18,7.686013,-86.26222,-346.919,0.131415,1.286218,2.040423,170.19,202.543,0.09641009,5875.79,0.9989137,0.1316532,16.6227,0.009,84,796.9152,-0.5498371,-23.6367
9/4/2025 12:19,7.65748,-84.61714,-341.602,0.112047,1.09946,1.74426,170.563,202.372,0.0963349,5862.92,0.9988909,0.131542,16.7552,0,84,797.0802,-0.5576601,-24.15941
9/4/2025 12:20,7.671824,-85.4826,-342.84,0.109673,1.07765,1.70943,170.12,201.733,0.09602593,5878.22,0.9988864,0.131126,16.8187,0.009,84,797.035,-0.5537567,-24.03349
9/4/2025 12:21,7.736003,-89.2353,-358.628,0.08910447,0.8731598,1.38552,169.807,201.81,0.09605769,5889.06,0.9989033,0.131177,16.69716,0.009,84,797.185,-0.5530491,-23.94227
9/4/2025 12:22,6.86367,-38.62381,-116.461,8.926677,94.05533,148.616,0.0549451,0.0603384,0,18200000,0.99814,3.92E-05,20.3202,0.009,84,797.5152,-0.777514,-72.4617
9/4/2025 12:23,7.457817,-72.85595,-291.217,0.6698479,6.57798,10.4502,169.7002,200.919,0.09563436,5892.745,0.998874,0.130597,16.865,0.009,84,798.265,-0.5859413,-23.6214
9/4/2025 12:24,7.61731,-82.23772,-323.7303,0.108438,1.06198,1.68721,168.662,200.303,0.09532733,5929.012,0.998897,0.130197,16.7296,0,84,798.1828,-0.583087,-23.3288
9/4/2025 12:25,7.67833,-85.83307,-340.205,0.0417372,0.408458,0.649091,168.903,200.7,0.09551863,5920.541,0.998901,0.130455,16.7054,0,84,798.3477,-0.5849705,-23.4583
9/4/2025 12:26,7.65588,-84.52892,-346.165,0.06545722,0.6411944,1.019418,169.312,200.859,0.0956002,5906.258,0.9988892,0.130558,16.777,0,84,798.783,-0.5947714,-24.3961
9/4/2025 12:27,7.646533,-83.9901,-346.1941,0.07198605,0.7056285,1.1221,169.343,200.689,0.09552018,5905.184,0.9988813,0.1304477,16.8224,0,84,798.9929,-0.599602,-24.7911
9/4/2025 12:28,7.743434,-89.6716,-364.734,0.0533846,0.521537,0.8299671,168.139,199.863,0.09511144,5947.449,0.998904,0.129911,16.68958,0,84,799.45,-0.6086378,-25.3992
9/4/2025 12:29,7.71029,-87.7428,-359.975,0.05190957,0.5078407,0.8084866,168.579,199.973,0.09516998,5931.928,0.998888,0.129982,16.78066,0,84,799.8405,-0.6197357,-26.208
9/4/2025 12:30,7.67233,-85.51836,-353.981,0.0544733,0.53321,0.8493849,168.67,199.818,0.09509816,5928.745,0.998878,0.129882,16.8386,0,84,800.3655,-0.6292591,-27.0433
9/4/2025 12:31,7.71954,-88.2721,-358.9757,0.05149184,0.5024407,0.8011081,167.108,198.4752,0.09443932,5984.14,0.9988971,0.129009,16.7257,0,84,800.988,-0.6371498,-27.4063
9/4/2025 12:32,7.736023,-89.24246,-363.7751,0.0444578,0.433334,0.6915487,167.26,198.697,0.09454636,5978.708,0.998899,0.129153,16.71657,0,84,801.6931,-0.6531153,-28.516
9/4/2025 12:33,7.6898,-86.5412,-357.5166,0.048233,0.470647,0.7516366,167.654,198.749,0.0945772,5964.681,0.998883,0.129187,16.8086,0,84,802.346,-0.664806,-29.341
9/4/2025 12:34,7.66309,-84.98669,-353.514,0.0536677,0.524158,0.837625,169.107,200.116,0.09524566,5913.41,0.99887,0.130075,16.88718,0,84,802.9157,-0.67673,-30.3963
9/4/2025 12:35,7.740025,-89.49042,-362.562,0.0391417,0.381201,0.609309,166.439,197.551,0.0939921,6008.22,0.998892,0.128408,16.7545,0,84,802.968,-0.6734104,-30.2097
9/4/2025 12:36,7.72023,-88.34123,-361.434,0.0328415,0.320087,0.511883,166.725,197.603,0.094021,5997.92,0.998881,0.128442,16.81861,0,84,803.4257,-0.6836872,-31.082
9/4/2025 12:37,7.68621,-86.35283,-356.2768,0.0309716,0.3021237,0.483397,166.859,197.452,0.0939518,5993.08,0.9988688,0.128344,16.888,0,84,803.883,-0.6908903,-31.44117
9/4/2025 12:38,7.696026,-86.9274,-356.193,0.03142314,0.306326,0.490274,165.485,195.903,0.0931983,6042.85,0.998871,0.1273368,16.8706,0,84,804.1158,-0.6960287,-31.7877
9/4/2025 12:39,7.33465,-65.60326,-248.934,2.58676,25.258,40.4333,164.007,193.958,0.09225621,6097.31,0.998863,0.1260724,16.9638,0.009,84,804.3558,-0.898139,-51.4707
9/4/2025 12:40,7.54765,-78.16315,-316.933,0.2546924,2.4796,3.97369,164.746,195.017,0.0927681,6069.962,0.99887,0.126761,16.86927,0.009,84,805.128,-0.716856,-33.7694
9/4/2025 12:41,7.55823,-78.80449,-338.062,0.06843001,0.6669736,1.068898,165.1176,195.21,0.09286507,6056.29,0.9988609,0.1268864,16.9291,0.009,84,805.2109,-0.7149191,-33.6669
9/4/2025 12:42,7.64038,-83.60147,-352.257,0.0184993,0.179772,0.287855,162.583,193.064,0.0918123,6150.687,0.9988937,0.125492,16.7341,0,84,804.348,-0.6986952,-32.509
9/4/2025 12:43,7.69352,-86.7033,-367.332,0.001291911,0.01253366,0.0200555,162.799,193.8412,0.0921828,6142.546,0.998914,0.125997,16.6156,0,84,803.703,-0.6817169,-31.2751
9/4/2025 12:44,7.671081,-85.38008,-366.865,0,0,-0.05661401,163.146,194.236,0.0923746,6129.49,0.998914,0.126253,16.6197,0,84,803.1557,-0.6754265,-30.8487
9/4/2025 12:45,7.68188,-86.01427,-368.9178,0,0,-0.06325102,162.976,194.083,0.09229961,6135.86,0.9989153,0.126154,16.6087,0,84,802.683,-0.6626282,-29.9859
9/4/2025 12:46,7.750349,-90.03401,-382.012,0,0,-0.198458,161.0927,192.13,0.09134785,6207.606,0.998926,0.124885,16.5422,0,84,802.173,-0.6556406,-29.5498
9/4/2025 12:47,7.729676,-88.86575,-382.293,0,0,-0.206496,162.3164,192.852,0.09170822,6160.81,0.9988977,0.125354,16.71002,0,84,801.7981,-0.646397,-28.8252
9/4/2025 12:48,7.713941,-87.9788,-379.4964,0,0,-0.175681,162.855,192.887,0.0917327,6140.43,0.9988739,0.125376,16.8483,0,84,801.641,-0.64714,-28.9199
9/4/2025 12:49,7.744522,-89.7789,-383.976,0,0,-0.2557603,160.458,190.133,0.09039469,6232.156,0.998876,0.123586,16.8286,0,84,801.4831,-0.643438,-28.63981
9/4/2025 12:50,7.745894,-89.8695,-388.487,0,0,-0.2558497,161.132,190.798,0.09071916,6206.09,0.998871,0.124019,16.8595,0,84,801.311,-0.6400671,-28.3835
9/4/2025 12:52,7.518359,-76.46561,-307.871,0.477518,4.68048,7.46822,161.1321,190.224,0.0904476,6206.09,0.9988479,0.123645,16.993,0,84,801.8131,-0.870344,-51.6966
9/4/2025 12:53,7.653291,-84.4336,-340.505,0.08847625,0.866101,1.383239,159.667,188.681,0.0896965,6263.053,0.998855,0.122643,16.9747,0.009,84,802.5257,-0.8828907,-52.52142
9/4/2025 12:54,6.812922,-35.34317,-135.4416,4.696622,46.1738,73.75779,0.0549451,0.064132,0,18200000,0.9986887,4.17E-05,17.2318,0.009,84,802.9157,-0.8914547,-44.5772
9/4/2025 12:55,7.047935,-48.67792,-204.905,3.22375,31.54555,50.47792,157.343,185.519,0.08816687,6355.533,0.998836,0.120587,17.0534,0.018,84,804.1158,-0.8616104,-44.8297
9/4/2025 12:56,7.22835,-59.33523,-263.689,0.7319972,7.1538,11.4551,159.407,188.055,0.08939674,6273.25,0.998842,0.122236,17.02406,0.018,84,804.6333,-0.7112932,-34.2156
9/4/2025 12:57,7.46719,-73.40431,-305.9204,0.225101,2.19322,3.51021,155.981,184.758,0.08778754,6411.057,0.998871,0.120093,16.8451,0.009,84,804.086,-0.698673,-33.49231
9/4/2025 12:58,7.569975,-79.50306,-337.792,0.08576506,0.8375752,1.34011,157.822,186.509,0.08864224,6336.25,0.9988545,0.121231,16.9471,0.018,84,803.9357,-0.6958933,-33.25015
9/4/2025 12:59,7.63582,-83.41551,-356.315,0.0289541,0.2831261,0.45311,158.547,187.039,0.08890356,6307.27,0.9988412,0.121575,17.0245,0,84,804.1983,-0.700189,-33.4588
9/4/2025 13:00,7.70055,-87.25643,-366.3166,0.003343359,0.03272141,0.0523745,158.694,186.992,0.08888357,6301.43,0.9988321,0.121545,17.0768,0,84,804.3633,-0.716139,-34.76875
9/4/2025 13:01,7.67865,-85.98328,-363.0741,0,0,-0.217927,158.659,186.655,0.0887232,6302.84,0.9988197,0.121326,17.1471,0,84,804.5583,-0.71898,-34.80763
9/4/2025 13:02,7.691671,-86.77006,-360.9665,0,0,-0.3327727,158.4983,186.225,0.0885175,6309.216,0.998809,0.121046,17.2048,0.009,84,805.128,-0.7312031,-35.6187
9/4/2025 13:03,7.68956,-86.65323,-358.864,0,0,-0.413111,158.301,185.886,0.08835395,6317.067,0.9988047,0.1208257,17.2307,0,84,805.698,-0.7402859,-36.3555
9/4/2025 13:04,7.681661,-86.1931,-356.689,0,0,-0.4479904,158.214,185.681,0.08825587,6320.558,0.9988,0.120693,17.25512,0,84,806.2459,-0.754796,-37.4416
9/4/2025 13:05,7.552122,-78.5208,-332.402,0.0555249,0.5435516,0.872164,156.727,184.1008,0.08748702,6380.52,0.9988068,0.119666,17.2152,0,84,806.4409,-0.7487612,-37.0499
9/4/2025 13:06,7.55864,-78.88078,-326.7558,0.0560226,0.5474815,0.8783741,156.056,183.697,0.0872866,6407.962,0.998823,0.119403,17.1219,0,84,806.268,-0.746524,-36.7392
9/4/2025 13:07,7.57421,-79.78916,-328.511,0.05357372,0.5230555,0.8392677,156.177,184.019,0.0874406,6402.999,0.9988307,0.119612,17.0785,0,84,806.306,-0.7484331,-36.8933
9/4/2025 13:08,7.66362,-85.0296,-343.161,0.04339869,0.422289,0.677837,152.892,180.766,0.08585498,6540.58,0.9988559,0.117498,16.9266,0,84,806.463,-0.7536564,-37.3848
9/4/2025 13:09,7.666588,-85.22987,-347.064,0.0407253,0.397023,0.637141,153.711,181.388,0.08616109,6505.731,0.998841,0.117902,17.0111,0,84,806.366,-0.7495651,-37.2577
9/4/2025 13:10,7.619561,-82.4761,-343.035,0.0392813,0.38374,0.6156211,154.208,181.6113,0.0862736,6484.751,0.998826,0.118047,17.09999,0,84,806.186,-0.7467108,-36.8663
9/4/2025 13:11,7.63343,-83.28915,-342.594,0.0420226,0.410406,0.6582744,152.664,179.889,0.08543708,6550.318,0.99883,0.116928,17.0763,0,84,806.0135,-0.7462034,-36.8149
9/4/2025 13:12,7.671531,-85.53267,-348.888,0.03723351,0.363472,0.5829202,152.195,179.454,0.08522439,6570.52,0.9988345,0.116645,17.0472,0,84,805.886,-0.743928,-36.628
9/4/2025 13:13,7.64776,-84.1427,-348.0943,0.037256,0.36404,0.583863,152.711,179.853,0.08542057,6548.33,0.998826,0.116904,17.0987,0,84,805.9759,-0.744573,-36.7668
9/4/2025 13:14,7.62151,-82.60489,-343.469,0.04046392,0.395797,0.6347531,152.965,179.952,0.08547081,6537.44,0.998817,0.116969,17.14837,0,84,805.9684,-0.7441454,-36.69066
9/4/2025 13:15,7.67499,-85.7282,-348.783,0.0365091,0.3561,0.5712311,150.525,177.607,0.08432748,6643.43,0.998839,0.115445,17.01636,0,84,806.0434,-0.746027,-36.94227
9/4/2025 13:16,7.65738,-84.7006,-350.6,0.0354451,0.346135,0.5550852,151.222,178.246,0.08463947,6612.78,0.998831,0.11586,17.0623,0,84,805.8559,-0.7431431,-36.71252
9/4/2025 13:17,7.62283,-82.6716,-343.889,0.0370531,0.362119,0.5807964,151.569,178.467,0.08474886,6597.68,0.998823,0.116004,17.1089,0,84,806.0059,-0.7433443,-36.6804
9/4/2025 13:18,7.54437,-78.05586,-333.312,0.0762559,0.74627,1.19719,151.7526,178.358,0.08469971,6589.67,0.9988091,0.115933,17.1901,0,84,806.2534,-0.7487526,-37.29458
9/4/2025 13:19,6.85919,-37.9658,-173.4336,1.592896,15.6265,25.0353,148.836,174.708,0.08293205,6718.8,0.9987976,0.11356,17.2468,0,84,805.256,-0.7328968,-36.49615
9/4/2025 13:20,6.715203,-29.8142,-147.775,2.650303,26.0501,41.68967,147.84,173.369,0.08228473,6764.09,0.9987894,0.11269,17.2903,0,84,804.438,-0.7109089,-34.27745
9/4/2025 13:21,6.727776,-30.5295,-144.721,3.08675,30.4788,48.58121,145.311,170.297,0.0807961,6881.79,0.998783,0.110693,17.3184,0,84,801.2881,-0.651834,-31.5652
9/4/2025 13:22,6.65196,-26.23558,-142.9804,2.98974,29.58065,47.0726,147.485,172.77,0.081996,6780.35,0.998781,0.1123,17.3378,0,84,800.02,-0.6299963,-28.7133
9/4/2025 13:23,6.67319,-27.442,-145.4218,3.0432,30.1944,47.9489,147.563,172.7171,0.08197215,6776.78,0.998774,0.112266,17.3749,0,84,798.415,-0.598608,-26.84755
9/4/2025 13:24,6.646187,-25.9137,-141.28,3.28937,32.7024,51.8485,147.414,172.463,0.0818497,6783.631,0.99877,0.112101,17.3956,0,84,797.1777,-0.572687,-25.9065
9/4/2025 13:25,6.60465,-23.5653,-138.3193,3.13208,31.2473,49.4352,147.352,172.126,0.08168932,6786.47,0.998758,0.111882,17.4644,0,84,795.565,-0.5436449,-23.0799
9/4/2025 13:26,6.652989,-26.3119,-144.232,2.896825,28.9712,45.7854,147.88,172.469,0.08185827,6762.245,0.9987453,0.112105,17.5357,0,84,794.8,-0.5047102,-19.3815
9/4/2025 13:27,6.624449,-24.7002,-142.79,2.86845,28.7653,45.40421,145.771,169.7183,0.08052768,6860.06,0.99873,0.1103169,17.6126,0,84,793.915,-0.5126667,-21.2853
9/4/2025 13:28,6.64499,-25.878,-142.415,2.74936,27.699,43.64109,145.9755,169.4114,0.0803844,6850.465,0.998704,0.110117,17.75721,0,84,792.6249,-0.488516,-19.4388
9/4/2025 13:29,7.21616,-59.10158,-116.556,9.927544,103.4293,162.604,0.0549451,0.06147857,0,18200000,0.998321,4.00E-05,19.436,0,84,792.6249,-0.6947584,-52.47308
9/4/2025 13:30,7.593273,-81.954,-107.363,10.2738,109.783,172.5455,0.0549451,0.05973596,0,18200000,0.9980377,3.88E-05,20.801,0,84,793.9075,-0.7144041,-55.0493
9/4/2025 13:31,7.75969,-92.24892,-103.2384,10.0671,109.691,172.317,0.0549451,0.0584469,0,18200000,0.997804,3.80E-05,21.8631,0,84,794.77,-0.727729,-54.7373
9/4/2025 13:32,7.743081,-91.4955,-89.31714,9.936949,109.804,172.463,0.0549451,0.057523,0,18200000,0.9976226,3.74E-05,22.6536,0.009,84,795.5951,-0.740589,-55.6846
9/4/2025 13:33,7.78067,-93.96315,-80.1642,9.835108,109.888,172.594,0.0549451,0.0567949,0,18200000,0.997471,3.69E-05,23.29474,0.009,84,796.4051,-0.7534876,-56.6705
9/4/2025 13:34,7.82579,-96.86947,-73.1309,9.74985,109.961,172.734,0.0549451,0.05617513,0,18200000,0.997335,3.65E-05,23.8536,0.018,84,797.2527,-0.767781,-58.8925
9/4/2025 13:35,7.83167,-97.39876,-65.99742,9.667654,109.978,172.811,0.0549451,0.0555999,0,18200000,0.9972042,3.61E-05,24.3834,0.027,84,798.198,-0.7845955,-60.0446
9/4/2025 13:36,7.824006,-97.09358,-59.12858,9.571484,109.746,172.49,0.0549451,0.0550795,0,18200000,0.9970806,3.58E-05,24.8722,0.027,84,799.0754,-0.8087101,-62.01583
9/4/2025 13:37,7.8157,-96.72403,-53.35885,9.477621,109.397,171.973,0.0549451,0.05464434,0,18200000,0.9969737,3.55E-05,25.2881,0.036,84,799.8029,-0.8283062,-62.0035
9/4/2025 13:38,7.80501,-96.19951,-48.271,9.390116,109.064,171.468,0.0549451,0.0542445,0,18200000,0.996873,3.53E-05,25.67619,0.045,84,800.4555,-0.8330107,-63.5791
9/4/2025 13:39,7.76345,-93.78433,-42.27477,9.32108,108.904,171.213,0.0549451,0.0538749,0,18200000,0.9967763,3.50E-05,26.04,0.045,84,800.973,-0.838294,-64.24916
9/4/2025 13:40,7.76297,-93.87493,-39.42805,9.239999,108.634,170.773,0.0549451,0.05349032,0,18200000,0.9966735,3.48E-05,26.42389,0.054,84,801.4831,-0.8718004,-65.02489
9/4/2025 13:41,7.729534,-91.9342,-34.81942,9.175085,108.43,170.4483,0.0549451,0.053171,0,18200000,0.996586,3.46E-05,26.7469,0.063,84,801.9631,-0.850757,-65.37951
9/4/2025 13:42,7.70222,-90.34395,-30.9833,9.118788,108.216,170.0998,0.0549451,0.0529172,0,18200000,0.996515,3.44E-05,27.0064,0.072,84,802.3156,-0.868873,-64.1213
9/4/2025 13:43,7.82647,-98.00434,-36.6457,9.073297,108.01,169.782,0.0549451,0.0527244,0,18200000,0.99646,3.43E-05,27.20509,0.081,84,802.6532,-0.867856,-63.6579
9/4/2025 13:44,7.83051,-98.29283,-35.0841,9.024991,107.649,169.216,0.0549451,0.05260168,0,18200000,0.996425,3.42E-05,27.33243,0.09,84,802.863,-0.88144,-64.81115
9/4/2025 13:45,7.803347,-96.66205,-32.40424,9.008949,107.6114,169.172,0.0549451,0.0525085,0,18200000,0.996398,3.41E-05,27.4295,0.099,84,803.0882,-0.8821726,-63.65441
9/4/2025 13:46,7.790131,-95.8705,-29.5599,8.974522,107.2781,168.67,0.0549451,0.052456,0,18200000,0.9963823,3.41E-05,27.4843,0.099,84,803.2757,-0.86094,-63.4991
9/4/2025 13:47,7.767168,-94.48767,-26.8753,8.926653,106.825,167.963,0.0549451,0.05238566,0,18200000,0.996362,3.41E-05,27.5579,0.099,84,803.4182,-0.8597784,-63.18918
9/4/2025 13:48,7.74007,-92.85211,-24.1311,8.932745,107.022,168.281,0.0549451,0.0523118,0,18200000,0.99634,3.40E-05,27.63553,0.108,84,803.583,-0.86202,-65.56114
9/4/2025 13:49,7.72655,-92.03195,-21.6373,8.949161,107.202,168.661,0.0549451,0.0522858,0,18200000,0.996332,3.40E-05,27.6628,0.117,84,804.078,-0.8719425,-62.1172
9/4/2025 13:50,7.742997,-93.0381,-19.2173,9.021374,107.987,170.008,0.0549451,0.0522911,0,18200000,0.9963339,3.40E-05,27.6573,0.117,84,804.5808,-0.8799448,-63.0617
9/4/2025 13:51,7.701416,-90.54422,-15.6458,9.037811,108.403,170.788,0.0549451,0.0521226,0,18200000,0.996284,3.39E-05,27.8351,0.126,84,805.4434,-0.901759,-63.7104
9/4/2025 13:52,7.44527,-74.87774,-25.2326,8.906705,107.033,168.676,0.0549451,0.05199077,0,18200000,0.9962442,3.38E-05,27.975,0.126,84,805.8784,-0.914206,-65.40791
9/4/2025 13:53,7.60427,-84.61,-44.26795,8.900006,106.8174,168.3753,0.0549451,0.0520535,0,18200000,0.9962631,3.38E-05,27.9084,0.135,84,805.9534,-0.9102068,-64.3076
9/4/2025 13:54,7.62942,-86.1311,-47.17904,8.859121,106.2168,167.415,0.0549451,0.05212133,0,18200000,0.9962834,3.39E-05,27.8364,0.144,84,805.7734,-0.9067154,-65.21572
9/4/2025 13:55,7.634665,-86.4315,-44.8354,8.860575,106.139,167.2502,0.0549451,0.05219145,0,18200000,0.9963044,3.39E-05,27.7623,0.135,84,805.458,-0.9057884,-64.14043
9/4/2025 13:56,7.631834,-86.23123,-41.84323,8.826244,105.593,166.3604,0.0549451,0.0522801,0,18200000,0.996331,3.40E-05,27.6689,0.135,84,805.1659,-0.903213,-63.8083
9/4/2025 13:57,7.641632,-86.8011,-40.61299,8.837946,105.59,166.308,0.0549451,0.05238055,0,18200000,0.9963603,3.40E-05,27.5633,0.135,84,804.7683,-0.904485,-63.89515
9/4/2025 13:58,7.64471,-86.96794,-39.18248,8.856543,105.724,166.466,0.0549451,0.05245113,0,18200000,0.996381,3.41E-05,27.4894,0.135,84,804.4008,-0.897298,-63.6137
9/4/2025 13:59,7.64231,-86.8011,-37.2942,8.836861,105.405,165.9117,0.0549451,0.05251888,0,18200000,0.9964007,3.41E-05,27.4187,0.117,84,804.0483,-0.8914976,-63.1278
9/4/2025 14:00,7.635932,-86.38859,-35.6539,8.825694,105.18,165.506,0.0549451,0.0525916,0,18200000,0.9964218,3.42E-05,27.3429,0.126,84,803.6808,-0.8860388,-62.7298
9/4/2025 14:01,7.62777,-85.8712,-34.3378,8.840702,105.299,165.625,0.0549451,0.0526518,0,18200000,0.9964392,3.42E-05,27.2804,0.126,84,803.2607,-0.87883,-62.2324
9/4/2025 14:02,7.61125,-84.84125,-33.0337,8.813242,104.913,164.933,0.0549451,0.052718,0,18200000,0.9964582,3.43E-05,27.2118,0.126,84,802.7581,-0.8710928,-61.6812
9/4/2025 14:03,7.603155,-84.32626,-31.86303,8.829209,105.0191,165.05,0.0549451,0.05278553,0,18200000,0.9964775,3.43E-05,27.142,0.126,84,802.413,-0.866174,-61.2597
9/4/2025 14:04,7.59518,-83.8232,-30.4874,8.826758,104.9372,164.862,0.0549451,0.05283873,0,18200000,0.996493,3.43E-05,27.0871,0.117,84,802.0456,-0.85945,-60.71094
9/4/2025 14:05,7.585758,-83.2319,-29.1927,8.830255,104.923,164.785,0.0549451,0.0528918,0,18200000,0.9965077,3.44E-05,27.0325,0.108,84,801.7006,-0.854661,-60.4468
9/4/2025 14:06,7.57421,-82.5047,-27.8409,8.833757,104.872,164.653,0.0549451,0.0529658,0,18200000,0.9965286,3.44E-05,26.9565,0.099,84,801.3406,-0.8475065,-59.8667
9/4/2025 14:07,7.56559,-81.95877,-26.5415,8.826058,104.688,164.3251,0.0549451,0.05303514,0,18200000,0.9965481,3.45E-05,26.88546,0.108,84,801.0405,-0.8432274,-59.5636
9/4/2025 14:08,7.55611,-81.3627,-25.34705,8.830448,104.662,164.244,0.0549451,0.05309615,0,18200000,0.996565,3.45E-05,26.8231,0.108,84,800.7555,-0.8366957,-59.10242
9/4/2025 14:09,7.5468,-80.7786,-24.4673,8.821169,104.492,163.923,0.0549451,0.0531522,0,18200000,0.996581,3.45E-05,26.766,0.099,84,800.4104,-0.828434,-58.518
9/4/2025 14:10,7.536336,-80.1253,-23.5255,8.844653,104.71,164.224,0.0549451,0.0532034,0,18200000,0.9965949,3.46E-05,26.7139,0.099,84,800.1329,-0.8255625,-58.38813
9/4/2025 14:11,7.526428,-79.50545,-22.0688,8.82066,104.368,163.633,0.0549451,0.0532585,0,18200000,0.99661,3.46E-05,26.658,0.099,84,799.7954,-0.8202276,-58.0862
9/4/2025 14:12,7.515656,-78.83072,-21.1008,8.832743,104.424,163.689,0.0549451,0.0533222,0,18200000,0.9966277,3.47E-05,26.5934,0.099,84,799.5404,-0.8142166,-57.51293
9/4/2025 14:13,7.505945,-78.22275,-20.06131,8.838276,104.416,163.639,0.0549451,0.05337979,0,18200000,0.9966434,3.47E-05,26.53525,0.099,84,799.2779,-0.8080883,-57.2261
9/4/2025 14:14,7.498,-77.72208,-19.3651,8.82641,104.202,163.263,0.0549451,0.05343929,0,18200000,0.9966597,3.47E-05,26.4752,0.099,84,798.9929,-0.804028,-56.9405
9/4/2025 14:15,7.48862,-77.13318,-18.3805,8.84883,104.378,163.5114,0.0549451,0.0535025,0,18200000,0.9966768,3.48E-05,26.4116,0.09,84,798.7678,-0.8007517,-56.5597
9/4/2025 14:16,7.4792,-76.54428,-17.4745,8.851609,104.336,163.413,0.0549451,0.0535596,0,18200000,0.9966922,3.48E-05,26.3543,0.09,84,798.5204,-0.798864,-56.4992
9/4/2025 14:17,7.47075,-76.015,-16.5804,8.837013,104.103,163.0047,0.0549451,0.05361256,0,18200000,0.9967064,3.48E-05,26.3013,0.09,84,798.235,-0.791266,-56.1106
9/4/2025 14:18,7.46144,-75.43326,-16.0606,8.848107,104.157,163.061,0.0549451,0.0536692,0,18200000,0.9967217,3.49E-05,26.2446,0.09,84,798.0178,-0.7892771,-55.8224
9/4/2025 14:19,7.45308,-74.90874,-15.4026,8.858422,104.206,163.1,0.0549451,0.0537269,0,18200000,0.9967371,3.49E-05,26.1871,0.081,84,797.755,-0.7814865,-55.3443
9/4/2025 14:20,7.44409,-74.34607,-14.5228,8.861151,104.155,162.993,0.0549451,0.0537872,0,18200000,0.996753,3.50E-05,26.1271,0.09,84,797.5377,-0.777797,-55.1462
9/4/2025 14:21,7.434672,-73.75717,-13.7146,8.852281,103.972,162.672,0.0549451,0.0538477,0,18200000,0.9967692,3.50E-05,26.067,0.081,84,797.2828,-0.7768259,-54.934
9/4/2025 14:22,7.4255,-73.18497,-13.1376,8.873938,104.164,162.931,0.0549451,0.05390142,0,18200000,0.9967833,3.50E-05,26.0137,0.081,84,797.005,-0.769359,-54.40654
9/4/2025 14:23,7.41625,-72.608,-12.3723,8.852458,103.833,162.39,0.0549451,0.0539577,0,18200000,0.996798,3.51E-05,25.9581,0.081,84,796.8102,-0.7652788,-54.1996
9/4/2025 14:24,7.407555,-72.0644,-11.6523,8.857997,103.822,162.339,0.0549451,0.0540168,0,18200000,0.996814,3.51E-05,25.8997,0.081,84,796.5627,-0.7622137,-53.98075
9/4/2025 14:25,7.398154,-71.47789,-11.0682,8.861321,103.7763,162.246,0.0549451,0.054076,0,18200000,0.996829,3.51E-05,25.8414,0.072,84,796.3752,-0.7580986,-53.6174
9/4/2025 14:26,7.38838,-70.86992,-10.5174,8.878021,103.899,162.41,0.0549451,0.0541309,0,18200000,0.9968433,3.52E-05,25.78749,0.072,84,796.1651,-0.751802,-53.32076
9/4/2025 14:27,7.37804,-70.22858,-10.3195,8.872447,103.763,162.1765,0.0549451,0.0541819,0,18200000,0.996856,3.52E-05,25.73748,0.063,84,795.985,-0.7485218,-52.93989
9/4/2025 14:28,7.36746,-69.57292,-10.0287,8.89634,103.977,162.479,0.0549451,0.0542338,0,18200000,0.9968698,3.53E-05,25.6867,0.072,84,795.7601,-0.7419882,-52.5513
9/4/2025 14:29,7.355617,-68.84098,-9.787853,8.873131,103.641,161.928,0.0549451,0.0542829,0,18200000,0.9968823,3.53E-05,25.6387,0.072,84,795.5726,-0.7410984,-52.5577
9/4/2025 14:30,7.34472,-68.16626,-9.220417,8.887339,103.739,162.051,0.0549451,0.05433608,0,18200000,0.996896,3.53E-05,25.5868,0.072,84,795.348,-0.7388363,-52.3285
9/4/2025 14:31,7.30227,-65.56988,-6.41423,8.877924,103.663,161.716,0.0549451,0.05439973,0,18200000,0.9969121,3.54E-05,25.52484,0.072,84,794.2299,-0.7156334,-50.8465
9/4/2025 14:32,7.291717,-64.91184,-6.438072,8.883585,103.622,161.625,0.0549451,0.0544754,0,18200000,0.9969313,3.54E-05,25.4514,0.063,84,793.9899,-0.7129278,-50.5778
9/4/2025 14:33,7.274001,-63.8199,-6.02799,8.889367,103.599,161.55,0.0549451,0.05454592,0,18200000,0.996949,3.55E-05,25.3831,0.072,84,793.705,-0.702739,-49.781
9/4/2025 14:34,7.25592,-62.70647,-5.527313,8.901195,103.653,161.589,0.0549451,0.0546146,0,18200000,0.9969663,3.55E-05,25.3168,0.072,84,793.3974,-0.699937,-49.6567
9/4/2025 14:35,7.23609,-61.48815,-5.02902,8.88938,103.443,161.209,0.0549451,0.0546797,0,18200000,0.9969825,3.55E-05,25.2541,0.081,84,793.052,-0.693121,-49.25337
9/4/2025 14:36,7.21399,-60.1339,-4.690464,8.89593,103.452,161.18,0.0549451,0.05473744,0,18200000,0.9969969,3.56E-05,25.19858,0.063,84,792.7749,-0.691442,-49.1342
9/4/2025 14:37,7.189334,-58.6247,-4.17071,8.889329,103.308,160.911,0.0549451,0.0547965,0,18200000,0.9970115,3.56E-05,25.1419,0.063,84,792.4748,-0.686346,-48.7662
9/4/2025 14:38,7.164586,-57.1108,-3.8107,8.904786,103.421,161.045,0.0549451,0.0548538,0,18200000,0.997026,3.57E-05,25.08714,0.063,84,792.1973,-0.678373,-48.1364
9/4/2025 14:39,7.138571,-55.5205,-3.45546,8.88699,103.142,160.58,0.0549451,0.0549106,0,18200000,0.99704,3.57E-05,25.03283,0.054,84,791.9722,-0.6755209,-48.0819
9/4/2025 14:40,7.117777,-54.24738,-3.03107,8.913237,103.387,160.903,0.0549451,0.0549704,0,18200000,0.997054,3.57E-05,24.9759,0.063,84,791.612,-0.6690178,-47.398
9/4/2025 14:41,7.096698,-52.9575,-2.675827,8.929828,103.507,161.052,0.0549451,0.0550296,0,18200000,0.997068,3.58E-05,24.9196,0.063,84,791.357,-0.664539,-47.0082
9/4/2025 14:42,7.07802,-51.81551,-2.33012,8.927312,103.418,160.878,0.0549451,0.05508081,0,18200000,0.997081,3.58E-05,24.871,0.054,84,791.117,-0.6613474,-46.85828
9/4/2025 14:43,7.061655,-50.81415,-1.99395,8.931216,103.408,160.8262,0.0549451,0.0551291,0,18200000,0.9970926,3.58E-05,24.8252,0.054,84,790.8772,-0.6588955,-46.83264
9/4/2025 14:44,7.047368,-49.9392,-1.77937,8.920454,103.219,160.505,0.0549451,0.0551795,0,18200000,0.997105,3.59E-05,24.7775,0.054,84,790.6822,-0.653083,-46.27565
9/4/2025 14:45,7.03344,-49.0856,-1.48612,8.93749,103.35,160.678,0.0549451,0.0552327,0,18200000,0.9971175,3.59E-05,24.7274,0.054,84,790.4647,-0.649499,-46.0928
9/4/2025 14:46,7.01894,-48.1987,-1.15472,8.923277,103.13,160.3006,0.0549451,0.05528127,0,18200000,0.997129,3.59E-05,24.6816,0.045,84,790.2321,-0.6459303,-45.7702
9/4/2025 14:47,7.00025,-47.1258,-0.708874,8.946612,103.344,160.609,0.0549451,0.0553254,0,18200000,0.9971396,3.60E-05,24.64009,0.054,84,790.06,-0.6424694,-45.5994
9/4/2025 14:48,6.98461,-46.21029,-0.3631668,8.941768,103.233,160.397,0.0549451,0.055375,0,18200000,0.9971514,3.60E-05,24.5935,0.045,84,789.8046,-0.639002,-45.4293
9/4/2025 14:49,6.97028,-45.3711,-0.0269966,8.946743,103.227,160.359,0.0549451,0.055426,0,18200000,0.997163,3.60E-05,24.5457,0.054,84,789.6021,-0.634295,-45.0236
9/4/2025 14:50,6.95665,-44.5724,0.299637,8.94773,103.169,160.251,0.0549451,0.0554761,0,18200000,0.997175,3.61E-05,24.4988,0.054,84,789.452,-0.6316652,-44.8242
9/4/2025 14:51,6.94441,-43.8547,0.619118,8.95017,103.143,160.168,0.0549451,0.05552716,0,18200000,0.9971872,3.61E-05,24.45114,0.045,84,789.182,-0.627974,-44.57683
9/4/2025 14:52,7.016224,-47.98889,-21.6778,8.960541,103.19,160.222,0.0549451,0.0555797,0,18200000,0.9971995,3.61E-05,24.4022,0.054,84,789.025,-0.628698,-44.6257
9/4/2025 14:53,7.0239,-48.4467,-9.75209,8.963065,103.156,160.145,0.0549451,0.05562858,0,18200000,0.9972108,3.62E-05,24.3567,0.045,84,788.845,-0.62192,-44.14896
9/4/2025 14:54,6.99365,-46.6919,-6.669338,8.96706,103.152,160.1103,0.0549451,0.0556712,0,18200000,0.997221,3.62E-05,24.31712,0.045,84,788.657,-0.613112,-43.6029
9/4/2025 14:55,6.96518,-45.0349,-4.781063,8.96803,103.126,160.0348,0.0549451,0.05570853,0,18200000,0.9972294,3.62E-05,24.2825,0.054,84,788.439,-0.612536,-43.55987
9/4/2025 14:56,6.94287,-43.7355,-3.35294,8.958714,102.972,159.774,0.0549451,0.0557468,0,18200000,0.9972382,3.62E-05,24.2471,0.045,84,788.282,-0.6084547,-43.1195
9/4/2025 14:57,6.926868,-42.8009,-2.2729,8.978706,103.146,160.017,0.0549451,0.0557923,0,18200000,0.9972487,3.63E-05,24.2049,0.045,84,788.102,-0.6048145,-42.8636
9/4/2025 14:58,6.912694,-41.97359,-1.40029,8.967718,102.968,159.722,0.0549451,0.05583225,0,18200000,0.9972578,3.63E-05,24.168,0.045,84,787.9595,-0.599411,-42.6333
9/4/2025 14:59,6.90164,-41.3275,-0.7207947,8.977302,103.027,159.793,0.0549451,0.0558727,0,18200000,0.997267,3.63E-05,24.1307,0.045,84,787.809,-0.600666,-42.5703
9/4/2025 15:00,6.892193,-40.7743,-0.0413017,8.97306,102.929,159.6154,0.0549451,0.0559137,0,18200000,0.9972764,3.63E-05,24.093,0.045,84,787.637,-0.597641,-42.5077
9/4/2025 15:01,6.88427,-40.30943,0.5785866,8.990552,103.072,159.821,0.0549451,0.0559565,0,18200000,0.9972862,3.64E-05,24.0536,0.045,84,787.5094,-0.5936928,-42.15244
9/4/2025 15:02,6.876613,-39.8612,1.05781,8.978826,102.895,159.521,0.0549451,0.0559935,0,18200000,0.9972945,3.64E-05,24.0197,0.045,84,787.3369,-0.5929899,-42.177
9/4/2025 15:03,6.866483,-39.2699,1.53226,8.985587,102.9272,159.557,0.0549451,0.05602731,0,18200000,0.9973022,3.64E-05,23.9887,0.045,84,787.2319,-0.591091,-41.8963
9/4/2025 15:04,6.858869,-38.82408,2.00671,8.981828,102.843,159.398,0.0549451,0.0560651,0,18200000,0.9973108,3.64E-05,23.95401,0.045,84,787.0444,-0.58734,-41.70684
9/4/2025 15:05,6.851004,-38.3639,2.36434,8.967797,102.645,159.058,0.0549451,0.0561022,0,18200000,0.9973191,3.65E-05,23.9202,0.045,84,786.8418,-0.580283,-41.28431
9/4/2025 15:06,6.84335,-37.9157,2.7625,8.995328,102.909,159.45,0.0549451,0.05614124,0,18200000,0.997328,3.65E-05,23.8845,0.036,84,786.7069,-0.578289,-41.2162
9/4/2025 15:07,6.837498,-37.5724,3.239338,8.996977,102.876,159.3846,0.0549451,0.05617955,0,18200000,0.9973364,3.65E-05,23.8495,0.036,84,786.594,-0.584774,-41.5249
9/4/2025 15:08,6.83202,-37.25052,3.68041,8.989817,102.753,159.166,0.0549451,0.0562171,0,18200000,0.9973448,3.65E-05,23.8153,0.036,84,786.414,-0.574976,-40.8306
9/4/2025 15:09,6.82707,-36.95965,4.08096,8.991827,102.727,159.1089,0.0549451,0.05625465,0,18200000,0.9973531,3.66E-05,23.7812,0.045,84,786.2868,-0.57434,-40.787
9/4/2025 15:10,6.82178,-36.6497,4.51965,8.9973,102.746,159.1206,0.0549451,0.0562895,0,18200000,0.9973608,3.66E-05,23.74952,0.045,84,786.1668,-0.573675,-40.7415
9/4/2025 15:11,6.81604,-36.3135,4.908268,8.995545,102.685,159.007,0.0549451,0.0563232,0,18200000,0.9973684,3.66E-05,23.7189,0.036,84,786.0318,-0.5714674,-40.5823
9/4/2025 15:12,6.810515,-35.9893,5.29927,9.004201,102.737,159.0692,0.0549451,0.0563602,0,18200000,0.9973765,3.66E-05,23.6854,0.036,84,785.8968,-0.5660229,-40.195
9/4/2025 15:13,6.80441,-35.6317,5.72366,8.980648,102.421,158.557,0.0549451,0.05639973,0,18200000,0.9973852,3.67E-05,23.6496,0.036,84,785.7393,-0.566921,-40.18661
9/4/2025 15:14,6.797732,-35.24065,5.945389,9.00839,102.686,158.95,0.0549451,0.0564393,0,18200000,0.9973939,3.67E-05,23.6139,0.036,84,785.612,-0.5651245,-40.1341
9/4/2025 15:15,6.7927,-34.94501,5.77611,9.000761,102.552,158.715,0.0549451,0.0564801,0,18200000,0.997403,3.67E-05,23.577,0.036,84,785.432,-0.5545702,-39.5388
9/4/2025 15:16,6.78457,-34.47056,5.537693,9.002288,102.531,158.652,0.0549451,0.0565174,0,18200000,0.9974111,3.67E-05,23.54346,0.036,84,785.2367,-0.55606,-57.68063
,,,,,,,,,,,,,,,,,,